Folder: BO_lysoAI/example

Note: README.md
# Ferroci Analyzer

Electrochemical Data Analysis Tool with GUI for processing cyclic voltammetry data.

## Features

- Drag-and-drop CSV file interface
- Automatic reference file detection
- Extensible metrics system
- Real-time plotting with plotly
- Export to CSV and Excel
- Windows executable support via PyInstaller


## Run it on Windows

![Click on Release Tags](pictures/getexe0.png)

![Select latest Release](pictures/getexe1.png)

![Download .exe-file and run it :)](pictures/getexe1.png)



## Installation

### 1. Install Dependencies

```bash
uv sync --group dev
```

### 2. Run the Application

```bash
uv run python3 main.py
```

## Usage

### Processing Files

1. **First Time (No data.csv exists)**:
   - Drag and drop your reference CSV file first
   - The first file will be set as the reference
   - Then drag and drop test files to compare against the reference

2. **Subsequent Uses (data.csv exists)**:
   - Drag and drop new test files
   - They will be compared against the existing reference
   - Results will be appended to data.csv

### Output Files

The application creates two output files in the same directory as your CSV files:

- `data.csv`: Contains all metadata and calculated metrics
- `data.xlsx`: Excel version of the data

### Plot

The plot shows:
- **Reference curve**: Thick red line
- **Test curves**: Normal thickness with different colors

## Adding New Metrics

The application uses an extensible metrics system. To add a new metric:

### 1. Create Metric Class

Create a new file in `core/metrics/`, for example `core/metrics/peak_height.py`:

```python
from core.metrics.base_metric import BaseMetric
import pandas as pd

class PeakHeightMetric(BaseMetric):
    def get_name(self) -> str:
        return "Peak_Height"

    def get_description(self) -> str:
        return "Maximum current value in the curve"

    def calculate(self, data_df: pd.DataFrame, ref_data_df: pd.DataFrame) -> float:
        return data_df["Current_A"].max()
```

### 2. Register in main.py

Add these lines to `main.py`:

```python
from core.metrics.peak_height import PeakHeightMetric

# In the main() function:
registry.register(PeakHeightMetric())
```

That's it! Your new metric will automatically:
- Appear in the results table
- Be saved to CSV and Excel
- Be calculated for all processed files

See `core/metrics/example_metric.py` for a template.

## Building Windows Executable

### 1. Build Executable

```bash
uv run pyinstaller ferroci_analyzer.spec
```

The executable will be in the `dist/` directory.

### 2. Test Executable

Enter `dist/` directory. Double click on FerrociAnalyzer.

## File Structure

```
BO_lysoAI/
├── main.py                          # Application entry point
├── config.py                        # Configuration constants
├── read_ferro_bare.py               # Existing CSV parser (no changes)
├── requirements.txt                 # Python dependencies
├── ferroci_analyzer.spec           # PyInstaller configuration
│
├── app/
│   ├─

File: FERRO BARE.csv
Sept. 12, 2025   15:54:51
Cyclic Voltammetry
File: d:\serah 3rd year\02-09-25 l-lysine stability\ferro bare.csv
Data Source:  Experiment
Instrument Model:  CHI760D
Header:
Note:

Init E (V) = -0.2
High E (V) = 0.6
Low E (V) = -0.2
Init P/N = P
Scan Rate (V/s) = 0.05
Segment = 2
Sample Interval (V) = 0.001
Quiet Time (sec) = 2
Sensitivity (A/V) = 1e-4

Results:

Channel 1:
Segment 1:

Segment 2:

Potential/V, Current/A

-0.200, -3.536e-7
-0.194, 1.341e-7
-0.188, 2.304e-7
-0.182, 3.045e-7
-0.176, 3.585e-7
-0.170, 4.084e-7
-0.164, 4.513e-7
-0.158, 4.872e-7
-0.152, 5.179e-7
-0.146, 5.366e-7
-0.140, 5.555e-7
-0.134, 5.766e-7
-0.128, 6.002e-7
-0.122, 6.170e-7
-0.116, 6.346e-7
-0.110, 6.499e-7
-0.104, 6.619e-7
-0.098, 6.699e-7
-0.092, 6.831e-7
-0.086, 6.921e-7
-0.080, 7.042e-7
-0.074, 7.171e-7
-0.068, 7.311e-7
-0.062, 7.398e-7
-0.056, 7.549e-7
-0.050, 7.636e-7
-0.044, 7.759e-7
-0.038, 7.885e-7
-0.032, 8.055e-7
-0.026, 8.231e-7
-0.020, 8.446e-7
-0.014, 8.734e-7
-0.008, 9.029e-7
-0.002, 9.337e-7
0.004, 9.783e-7
0.010, 1.028e-6
0.016, 1.094e-6
0.022, 1.178e-6
0.028, 1.280e-6
0.034, 1.406e-6
0.040, 1.549e-6
0.046, 1.731e-6
0.052, 1.969e-6
0.058, 2.244e-6
0.064, 2.597e-6
0.070, 3.037e-6
0.076, 3.581e-6
0.082, 4.237e-6
0.088, 5.034e-6
0.094, 6.004e-6
0.100, 7.172e-6
0.106, 8.599e-6
0.112, 1.026e-5
0.118, 1.218e-5
0.124, 1.443e-5
0.130, 1.697e-5
0.136, 1.975e-5
0.142, 2.280e-5
0.148, 2.608e-5
0.154, 2.953e-5
0.160, 3.300e-5
0.166, 3.644e-5
0.172, 3.970e-5
0.178, 4.268e-5
0.184, 4.530e-5
0.190, 4.742e-5
0.196, 4.901e-5
0.202, 5.005e-5
0.208, 5.052e-5
0.214, 5.045e-5
0.220, 4.995e-5
0.226, 4.907e-5
0.232, 4.794e-5
0.238, 4.662e-5
0.244, 4.522e-5
0.250, 4.379e-5
0.256, 4.237e-5
0.262, 4.099e-5
0.268, 3.969e-5
0.274, 3.845e-5
0.280, 3.728e-5
0.286, 3.620e-5
0.292, 3.520e-5
0.298, 3.428e-5
0.304, 3.342e-5
0.310, 3.263e-5
0.316, 3.190e-5
0.322, 3.123e-5
0.328, 3.059e-5
0.334, 3.000e-5
0.340, 2.946e-5
0.346, 2.895e-5
0.352, 2.848e-5
0.358, 2.803e-5
0.364, 2.762e-5
0.370, 2.723e-5
0.376, 2.686e-5
0.382, 2.652e-5
0.388, 2.618e-5
0.394, 2.588e-5
0.400, 2.559e-5
0.406, 2.532e-5
0.412, 2.506e-5
0.418, 2.481e-5
0.424, 2.458e-5
0.430, 2.436e-5
0.436, 2.414e-5
0.442, 2.394e-5
0.448, 2.374e-5
0.454, 2.356e-5
0.460, 2.339e-5
0.466, 2.322e-5
0.472, 2.306e-5
0.478, 2.291e-5
0.484, 2.275e-5
0.490, 2.262e-5
0.496, 2.249e-5
0.502, 2.236e-5
0.508, 2.224e-5
0.514, 2.213e-5
0.520, 2.201e-5
0.526, 2.190e-5
0.532, 2.179e-5
0.538, 2.170e-5
0.544, 2.161e-5
0.550, 2.152e-5
0.556, 2.144e-5
0.562, 2.135e-5
0.568, 2.127e-5
0.574, 2.119e-5
0.580, 2.112e-5
0.586, 2.104e-5
0.592, 2.098e-5
0.598, 2.092e-5
0.596, 1.962e-5
0.590, 1.906e-5
0.584, 1.866e-5
0.578, 1.833e-5
0.572, 1.806e-5
0.566, 1.781e-5
0.560, 1.759e-5
0.554, 1.739e-5
0.548, 1.721e-5
0.542, 1.704e-5
0.536, 1.688e-5
0.530, 1.674e-5
0.524, 1.660e-5
0.518, 1.647e-5
0.512, 1.634e-5
0.506, 1.622e-5
0.500, 1.610e-5
0.494, 1.599e-5
0.488, 1.589e-5
0.482, 1.579e-5
0.476, 1.569e-5
0.470, 1.560e-5
0.464, 1.550e-5
0.458, 1.541e-5
0.452, 1.532e-5
0.446, 1.523e-5
0.440, 1.514e-5
0.434, 1.506e-5
0.428, 1.498e-5
0.422, 1.490e-5
0.416, 1.482e-5
0.410, 1.474e-5
0.404, 1.466e-5
0.398, 1.458e-5
0.392, 1.451e-5
0.386, 1.443e-5
0.380, 1.436e-5
0.374, 1.428e-5
0.368, 1.420e-5
0.362, 1.411e-5
0.356, 1.402e-5
0.350, 1.393e-5
0.344, 1.384e-5
0.338, 1.374e-5
0.332, 1.363e-5
0.326, 1.350e-5
0.320, 1.337e-5
0.314, 1.321e-5
0.308, 1.302e-5
0.302, 1.282e-5
0.296, 1.257e-5
0.290, 1.228e-5
0.284, 1.194e-5
0.278, 1.152e-5
0.272, 1.102e-5
0.266, 1.042e-5
0.260, 9.687e-6
0.254, 8.806e-6
0.248, 7.770e-6
0.242, 6.531e-6
0.236, 5.049e-6
0.230, 3.296e-6
0.224, 1.278e-6
0.218, -1.039e-6
0.212, -3.642e-6
0.206, -6.547e-6
0.200, -9.668e-6
0.194, -1.302e-5
0.188, -1.650e-5
0.182, -2.004e-5
0.176, -2.350e-5
0.170, -2.684e-5
0.164, -2.986e-5
0.158, -3.246e-5
0.152, -3.462e-5
0.146, -3.616e-5
0.140, -3.714e-5
0.134, -3.759e-5
0.128, -3.748e-5
0.122, -3.693e-5
0.116, -3.604e-5
0.110, -3.485e-5
0.104, -3.351e-5
0.098, -3.209e-5
0.092, -3.062e-5
0.086, -2.918e-5
0.080, -2.779e-5
0.074, -2.646e-5
0.068, -2.522e-5
0.062, -2.405e-5
0.056, -2.296e-5
0.050, -2.196e-5
0.044, -2.103e-5
0.038, -2.018e-5
0.032, -1.938e-5
0.026, -1.865e-5
0.020, -1.798e-5
0.014, -1.735e-5
0.008, -1.676e-5
0.002, -1.622e-5
-0.004, -1.571e-5
-0.010, -1.523e-5
-0.016, -1.479e-5
-0.022, -1.437e-5
-0.028, -1.398e-5
-0.034, -1.362e-5
-0.040, -1.327e-5
-0.046, -1.293e-5
-0.052, -1.262e-5
-0.058, -1.232e-5
-0.064, -1.204e-5
-0.070, -1.177e-5
-0.076, -1.152e-5
-0.082, -1.128e-5
-0.088, -1.105e-5
-0.094, -1.082e-5
-0.100, -1.060e-5
-0.106, -1.041e-5
-0.112, -1.021e-5
-0.118, -1.003e-5
-0.124, -9.853e-6
-0.130, -9.687e-6
-0.136, -9.528e-6
-0.142, -9.370e-6
-0.148, -9.222e-6
-0.154, -9.084e-6
-0.160, -8.949e-6
-0.166, -8.821e-6
-0.172, -8.708e-6
-0.178, -8.596e-6
-0.184, -8.494e-6
-0.190, -8.384e-6
-0.196, -8.294e-6
-0.199, -8.251e-6

File: FERRO MOD 9 0.0 to 1.7.csv
July 1, 2025   13:51:56
Cyclic Voltammetry
File: d:\serah 3rd year\02-09-25 l-lysine stability\ferro mod 9 cyclesre.csv
Data Source:  Experiment
Instrument Model:  CHI760D
Header:
Note:

Init E (V) = -0.2
High E (V) = 0.6
Low E (V) = -0.2
Init P/N = P
Scan Rate (V/s) = 0.05
Segment = 2
Sample Interval (V) = 0.001
Quiet Time (sec) = 2
Sensitivity (A/V) = 1e-4

Results:

Channel 1:
Segment 1:

Segment 2:

Potential/V, Current/A

-0.200, -1.136e-6
-0.194, 5.429e-7
-0.188, 8.681e-7
-0.182, 1.090e-6
-0.176, 1.269e-6
-0.170, 1.424e-6
-0.164, 1.546e-6
-0.158, 1.651e-6
-0.152, 1.740e-6
-0.146, 1.796e-6
-0.140, 1.849e-6
-0.134, 1.919e-6
-0.128, 1.962e-6
-0.122, 1.999e-6
-0.116, 2.048e-6
-0.110, 2.080e-6
-0.104, 2.102e-6
-0.098, 2.106e-6
-0.092, 2.133e-6
-0.086, 2.148e-6
-0.080, 2.163e-6
-0.074, 2.182e-6
-0.068, 2.206e-6
-0.062, 2.214e-6
-0.056, 2.217e-6
-0.050, 2.223e-6
-0.044, 2.229e-6
-0.038, 2.229e-6
-0.032, 2.240e-6
-0.026, 2.244e-6
-0.020, 2.252e-6
-0.014, 2.272e-6
-0.008, 2.270e-6
-0.002, 2.266e-6
0.004, 2.281e-6
0.010, 2.281e-6
0.016, 2.291e-6
0.022, 2.315e-6
0.028, 2.333e-6
0.034, 2.346e-6
0.040, 2.354e-6
0.046, 2.370e-6
0.052, 2.403e-6
0.058, 2.420e-6
0.064, 2.447e-6
0.070, 2.485e-6
0.076, 2.530e-6
0.082, 2.579e-6
0.088, 2.627e-6
0.094, 2.668e-6
0.100, 2.736e-6
0.106, 2.816e-6
0.112, 2.909e-6
0.118, 3.002e-6
0.124, 3.114e-6
0.130, 3.226e-6
0.136, 3.351e-6
0.142, 3.468e-6
0.148, 3.609e-6
0.154, 3.754e-6
0.160, 3.898e-6
0.166, 4.041e-6
0.172, 4.188e-6
0.178, 4.336e-6
0.184, 4.470e-6
0.190, 4.594e-6
0.196, 4.721e-6
0.202, 4.860e-6
0.208, 4.980e-6
0.214, 5.101e-6
0.220, 5.225e-6
0.226, 5.348e-6
0.232, 5.449e-6
0.238, 5.551e-6
0.244, 5.657e-6
0.250, 5.765e-6
0.256, 5.891e-6
0.262, 5.986e-6
0.268, 6.098e-6
0.274, 6.203e-6
0.280, 6.304e-6
0.286, 6.404e-6
0.292, 6.504e-6
0.298, 6.610e-6
0.304, 6.717e-6
0.310, 6.835e-6
0.316, 6.947e-6
0.322, 7.055e-6
0.328, 7.154e-6
0.334, 7.266e-6
0.340, 7.365e-6
0.346, 7.485e-6
0.352, 7.595e-6
0.358, 7.707e-6
0.364, 7.826e-6
0.370, 7.947e-6
0.376, 8.049e-6
0.382, 8.152e-6
0.388, 8.267e-6
0.394, 8.382e-6
0.400, 8.501e-6
0.406, 8.616e-6
0.412, 8.751e-6
0.418, 8.875e-6
0.424, 8.981e-6
0.430, 9.090e-6
0.436, 9.210e-6
0.442, 9.336e-6
0.448, 9.457e-6
0.454, 9.580e-6
0.460, 9.713e-6
0.466, 9.843e-6
0.472, 9.968e-6
0.478, 1.008e-5
0.484, 1.021e-5
0.490, 1.034e-5
0.496, 1.048e-5
0.502, 1.061e-5
0.508, 1.075e-5
0.514, 1.089e-5
0.520, 1.102e-5
0.526, 1.115e-5
0.532, 1.129e-5
0.538, 1.144e-5
0.544, 1.158e-5
0.550, 1.173e-5
0.556, 1.188e-5
0.562, 1.202e-5
0.568, 1.218e-5
0.574, 1.232e-5
0.580, 1.247e-5
0.586, 1.263e-5
0.592, 1.280e-5
0.598, 1.296e-5
0.596, 1.040e-5
0.590, 9.647e-6
0.584, 9.136e-6
0.578, 8.754e-6
0.572, 8.425e-6
0.566, 8.143e-6
0.560, 7.897e-6
0.554, 7.668e-6
0.548, 7.460e-6
0.542, 7.265e-6
0.536, 7.085e-6
0.530, 6.933e-6
0.524, 6.786e-6
0.518, 6.628e-6
0.512, 6.466e-6
0.506, 6.348e-6
0.500, 6.204e-6
0.494, 6.081e-6
0.488, 5.951e-6
0.482, 5.845e-6
0.476, 5.724e-6
0.470, 5.611e-6
0.464, 5.494e-6
0.458, 5.375e-6
0.452, 5.252e-6
0.446, 5.145e-6
0.440, 5.039e-6
0.434, 4.942e-6
0.428, 4.841e-6
0.422, 4.741e-6
0.416, 4.633e-6
0.410, 4.521e-6
0.404, 4.416e-6
0.398, 4.314e-6
0.392, 4.218e-6
0.386, 4.125e-6
0.380, 4.030e-6
0.374, 3.935e-6
0.368, 3.838e-6
0.362, 3.736e-6
0.356, 3.631e-6
0.350, 3.534e-6
0.344, 3.441e-6
0.338, 3.353e-6
0.332, 3.256e-6
0.326, 3.170e-6
0.320, 3.075e-6
0.314, 2.977e-6
0.308, 2.882e-6
0.302, 2.781e-6
0.296, 2.692e-6
0.290, 2.604e-6
0.284, 2.512e-6
0.278, 2.420e-6
0.272, 2.317e-6
0.266, 2.217e-6
0.260, 2.124e-6
0.254, 2.002e-6
0.248, 1.909e-6
0.242, 1.811e-6
0.236, 1.697e-6
0.230, 1.583e-6
0.224, 1.458e-6
0.218, 1.329e-6
0.212, 1.194e-6
0.206, 1.055e-6
0.200, 9.086e-7
0.194, 7.706e-7
0.188, 6.048e-7
0.182, 4.400e-7
0.176, 2.491e-7
0.170, 5.788e-8
0.164, -1.439e-7
0.158, -3.516e-7
0.152, -5.560e-7
0.146, -7.415e-7
0.140, -9.402e-7
0.134, -1.136e-6
0.128, -1.337e-6
0.122, -1.505e-6
0.116, -1.667e-6
0.110, -1.825e-6
0.104, -1.962e-6
0.098, -2.074e-6
0.092, -2.182e-6
0.086, -2.278e-6
0.080, -2.380e-6
0.074, -2.459e-6
0.068, -2.540e-6
0.062, -2.620e-6
0.056, -2.667e-6
0.050, -2.727e-6
0.044, -2.777e-6
0.038, -2.823e-6
0.032, -2.886e-6
0.026, -2.928e-6
0.020, -2.992e-6
0.014, -3.032e-6
0.008, -3.082e-6
0.002, -3.106e-6
-0.004, -3.150e-6
-0.010, -3.198e-6
-0.016, -3.244e-6
-0.022, -3.304e-6
-0.028, -3.355e-6
-0.034, -3.403e-6
-0.040, -3.449e-6
-0.046, -3.486e-6
-0.052, -3.547e-6
-0.058, -3.591e-6
-0.064, -3.638e-6
-0.070, -3.694e-6
-0.076, -3.754e-6
-0.082, -3.817e-6
-0.088, -3.871e-6
-0.094, -3.921e-6
-0.100, -3.974e-6
-0.106, -4.052e-6
-0.112, -4.121e-6
-0.118, -4.187e-6
-0.124, -4.280e-6
-0.130, -4.360e-6
-0.136, -4.445e-6
-0.142, -4.516e-6
-0.148, -4.613e-6
-0.154, -4.722e-6
-0.160, -4.820e-6
-0.166, -4.936e-6
-0.172, -5.071e-6
-0.178, -5.203e-6
-0.184, -5.348e-6
-0.190, -5.494e-6
-0.196, -5.649e-6
-0.199, -5.741e-6

File: FERRO MOD -0.5 to 1.7 V.csv
July 4, 2025   17:02:03
Cyclic Voltammetry
File: d:\serah 2nd year\04-07-25 scanrate opt ll\-0.5 to 1.7\ferro mod -0.5 to 1.7 v.csv
Data Source:  Experiment
Instrument Model:  CHI760D
Header:
Note:

Init E (V) = -0.2
High E (V) = 0.6
Low E (V) = -0.2
Init P/N = P
Scan Rate (V/s) = 0.05
Segment = 2
Sample Interval (V) = 0.001
Quiet Time (sec) = 2
Sensitivity (A/V) = 1e-4

Results:

Channel 1:
Segment 1:

Segment 2:
Ep = 0.081V
Eh = 0.170V
ip = -2.004e-5A
Ah = -3.801e-5C

Potential/V, Current/A

-0.200, -4.080e-8
-0.194, 1.071e-6
-0.188, 1.239e-6
-0.182, 1.359e-6
-0.176, 1.459e-6
-0.170, 1.542e-6
-0.164, 1.614e-6
-0.158, 1.665e-6
-0.152, 1.710e-6
-0.146, 1.739e-6
-0.140, 1.769e-6
-0.134, 1.804e-6
-0.128, 1.837e-6
-0.122, 1.861e-6
-0.116, 1.893e-6
-0.110, 1.916e-6
-0.104, 1.924e-6
-0.098, 1.935e-6
-0.092, 1.951e-6
-0.086, 1.959e-6
-0.080, 1.976e-6
-0.074, 1.997e-6
-0.068, 2.014e-6
-0.062, 2.030e-6
-0.056, 2.040e-6
-0.050, 2.045e-6
-0.044, 2.059e-6
-0.038, 2.073e-6
-0.032, 2.097e-6
-0.026, 2.116e-6
-0.020, 2.140e-6
-0.014, 2.167e-6
-0.008, 2.184e-6
-0.002, 2.208e-6
0.004, 2.241e-6
0.010, 2.288e-6
0.016, 2.334e-6
0.022, 2.390e-6
0.028, 2.462e-6
0.034, 2.533e-6
0.040, 2.616e-6
0.046, 2.696e-6
0.052, 2.815e-6
0.058, 2.938e-6
0.064, 3.081e-6
0.070, 3.250e-6
0.076, 3.462e-6
0.082, 3.695e-6
0.088, 3.958e-6
0.094, 4.259e-6
0.100, 4.627e-6
0.106, 5.052e-6
0.112, 5.542e-6
0.118, 6.082e-6
0.124, 6.704e-6
0.130, 7.397e-6
0.136, 8.145e-6
0.142, 8.947e-6
0.148, 9.824e-6
0.154, 1.075e-5
0.160, 1.169e-5
0.166, 1.266e-5
0.172, 1.363e-5
0.178, 1.458e-5
0.184, 1.550e-5
0.190, 1.637e-5
0.196, 1.721e-5
0.202, 1.800e-5
0.208, 1.872e-5
0.214, 1.940e-5
0.220, 2.001e-5
0.226, 2.057e-5
0.232, 2.105e-5
0.238, 2.148e-5
0.244, 2.185e-5
0.250, 2.218e-5
0.256, 2.248e-5
0.262, 2.271e-5
0.268, 2.291e-5
0.274, 2.308e-5
0.280, 2.322e-5
0.286, 2.332e-5
0.292, 2.340e-5
0.298, 2.346e-5
0.304, 2.350e-5
0.310, 2.352e-5
0.316, 2.353e-5
0.322, 2.351e-5
0.328, 2.348e-5
0.334, 2.344e-5
0.340, 2.339e-5
0.346, 2.332e-5
0.352, 2.326e-5
0.358, 2.319e-5
0.364, 2.312e-5
0.370, 2.303e-5
0.376, 2.294e-5
0.382, 2.284e-5
0.388, 2.274e-5
0.394, 2.264e-5
0.400, 2.254e-5
0.406, 2.244e-5
0.412, 2.235e-5
0.418, 2.224e-5
0.424, 2.213e-5
0.430, 2.202e-5
0.436, 2.192e-5
0.442, 2.181e-5
0.448, 2.171e-5
0.454, 2.162e-5
0.460, 2.152e-5
0.466, 2.143e-5
0.472, 2.133e-5
0.478, 2.123e-5
0.484, 2.113e-5
0.490, 2.105e-5
0.496, 2.096e-5
0.502, 2.089e-5
0.508, 2.082e-5
0.514, 2.075e-5
0.520, 2.067e-5
0.526, 2.059e-5
0.532, 2.054e-5
0.538, 2.048e-5
0.544, 2.043e-5
0.550, 2.039e-5
0.556, 2.035e-5
0.562, 2.031e-5
0.568, 2.028e-5
0.574, 2.025e-5
0.580, 2.022e-5
0.586, 2.021e-5
0.592, 2.020e-5
0.598, 2.020e-5
0.596, 1.783e-5
0.590, 1.701e-5
0.584, 1.645e-5
0.578, 1.600e-5
0.572, 1.565e-5
0.566, 1.532e-5
0.560, 1.502e-5
0.554, 1.476e-5
0.548, 1.452e-5
0.542, 1.430e-5
0.536, 1.409e-5
0.530, 1.391e-5
0.524, 1.373e-5
0.518, 1.355e-5
0.512, 1.337e-5
0.506, 1.322e-5
0.500, 1.306e-5
0.494, 1.291e-5
0.488, 1.276e-5
0.482, 1.263e-5
0.476, 1.249e-5
0.470, 1.236e-5
0.464, 1.222e-5
0.458, 1.208e-5
0.452, 1.195e-5
0.446, 1.182e-5
0.440, 1.169e-5
0.434, 1.157e-5
0.428, 1.145e-5
0.422, 1.133e-5
0.416, 1.120e-5
0.410, 1.107e-5
0.404, 1.095e-5
0.398, 1.083e-5
0.392, 1.070e-5
0.386, 1.059e-5
0.380, 1.046e-5
0.374, 1.034e-5
0.368, 1.021e-5
0.362, 1.007e-5
0.356, 9.943e-6
0.350, 9.801e-6
0.344, 9.666e-6
0.338, 9.531e-6
0.332, 9.396e-6
0.326, 9.240e-6
0.320, 9.085e-6
0.314, 8.922e-6
0.308, 8.753e-6
0.302, 8.567e-6
0.296, 8.379e-6
0.290, 8.189e-6
0.284, 7.984e-6
0.278, 7.744e-6
0.272, 7.497e-6
0.266, 7.215e-6
0.260, 6.910e-6
0.254, 6.572e-6
0.248, 6.206e-6
0.242, 5.799e-6
0.236, 5.339e-6
0.230, 4.815e-6
0.224, 4.228e-6
0.218, 3.576e-6
0.212, 2.839e-6
0.206, 2.017e-6
0.200, 1.104e-6
0.194, 1.132e-7
0.188, -9.778e-7
0.182, -2.156e-6
0.176, -3.424e-6
0.170, -4.748e-6
0.164, -6.099e-6
0.158, -7.475e-6
0.152, -8.839e-6
0.146, -1.014e-5
0.140, -1.138e-5
0.134, -1.253e-5
0.128, -1.355e-5
0.122, -1.443e-5
0.116, -1.518e-5
0.110, -1.577e-5
0.104, -1.623e-5
0.098, -1.656e-5
0.092, -1.675e-5
0.086, -1.686e-5
0.080, -1.687e-5
0.074, -1.682e-5
0.068, -1.671e-5
0.062, -1.655e-5
0.056, -1.634e-5
0.050, -1.610e-5
0.044, -1.584e-5
0.038, -1.558e-5
0.032, -1.531e-5
0.026, -1.504e-5
0.020, -1.477e-5
0.014, -1.448e-5
0.008, -1.421e-5
0.002, -1.392e-5
-0.004, -1.366e-5
-0.010, -1.341e-5
-0.016, -1.316e-5
-0.022, -1.291e-5
-0.028, -1.270e-5
-0.034, -1.247e-5
-0.040, -1.225e-5
-0.046, -1.203e-5
-0.052, -1.183e-5
-0.058, -1.163e-5
-0.064, -1.144e-5
-0.070, -1.126e-5
-0.076, -1.108e-5
-0.082, -1.091e-5
-0.088, -1.075e-5
-0.094, -1.058e-5
-0.100, -1.043e-5
-0.106, -1.028e-5
-0.112, -1.014e-5
-0.118, -1.001e-5
-0.124, -9.894e-6
-0.130, -9.768e-6
-0.136, -9.647e-6
-0.142, -9.525e-6
-0.148, -9.417e-6
-0.154, -9.324e-6
-0.160, -9.231e-6
-0.166, -9.139e-6
-0.172, -9.066e-6
-0.178, -8.993e-6
-0.184, -8.917e-6
-0.190, -8.845e-6
-0.196, -8.783e-6
-0.199, -8.771e-6

File: MOD FERRO CV -1 to 1.7 V.csv
Apr. 16, 2025   17:05:51
Cyclic Voltammetry
File: d:\serah 2nd year\16-04-25 l-arg -1 to 1.7 conc\l-arg 10mm\mod ferro cv.csv
Data Source:  Experiment
Instrument Model:  CHI760D
Header:
Note:

Init E (V) = -0.2
High E (V) = 0.6
Low E (V) = -0.2
Init P/N = P
Scan Rate (V/s) = 0.05
Segment = 2
Sample Interval (V) = 0.001
Quiet Time (sec) = 2
Sensitivity (A/V) = 1e-4

Results:

Channel 1:
Segment 1:

Segment 2:

Potential/V, Current/A

-0.200, -8.057e-6
-0.194, -6.231e-6
-0.188, -5.872e-6
-0.182, -5.603e-6
-0.176, -5.363e-6
-0.170, -5.143e-6
-0.164, -4.950e-6
-0.158, -4.766e-6
-0.152, -4.629e-6
-0.146, -4.501e-6
-0.140, -4.374e-6
-0.134, -4.233e-6
-0.128, -4.109e-6
-0.122, -4.011e-6
-0.116, -3.876e-6
-0.110, -3.776e-6
-0.104, -3.686e-6
-0.098, -3.612e-6
-0.092, -3.528e-6
-0.086, -3.441e-6
-0.080, -3.353e-6
-0.074, -3.256e-6
-0.068, -3.169e-6
-0.062, -3.089e-6
-0.056, -3.039e-6
-0.050, -2.963e-6
-0.044, -2.907e-6
-0.038, -2.853e-6
-0.032, -2.783e-6
-0.026, -2.698e-6
-0.020, -2.641e-6
-0.014, -2.579e-6
-0.008, -2.538e-6
-0.002, -2.492e-6
0.004, -2.426e-6
0.010, -2.365e-6
0.016, -2.303e-6
0.022, -2.216e-6
0.028, -2.144e-6
0.034, -2.073e-6
0.040, -1.986e-6
0.046, -1.881e-6
0.052, -1.747e-6
0.058, -1.607e-6
0.064, -1.419e-6
0.070, -1.202e-6
0.076, -9.224e-7
0.082, -5.836e-7
0.088, -1.945e-7
0.094, 2.945e-7
0.100, 9.085e-7
0.106, 1.666e-6
0.112, 2.571e-6
0.118, 3.676e-6
0.124, 4.997e-6
0.130, 6.541e-6
0.136, 8.327e-6
0.142, 1.040e-5
0.148, 1.277e-5
0.154, 1.547e-5
0.160, 1.836e-5
0.166, 2.152e-5
0.172, 2.481e-5
0.178, 2.823e-5
0.184, 3.166e-5
0.190, 3.499e-5
0.196, 3.813e-5
0.202, 4.101e-5
0.208, 4.348e-5
0.214, 4.548e-5
0.220, 4.695e-5
0.226, 4.786e-5
0.232, 4.817e-5
0.238, 4.798e-5
0.244, 4.736e-5
0.250, 4.640e-5
0.256, 4.518e-5
0.262, 4.381e-5
0.268, 4.233e-5
0.274, 4.084e-5
0.280, 3.936e-5
0.286, 3.794e-5
0.292, 3.658e-5
0.298, 3.531e-5
0.304, 3.412e-5
0.310, 3.303e-5
0.316, 3.202e-5
0.322, 3.106e-5
0.328, 3.018e-5
0.334, 2.937e-5
0.340, 2.861e-5
0.346, 2.791e-5
0.352, 2.727e-5
0.358, 2.666e-5
0.364, 2.610e-5
0.370, 2.558e-5
0.376, 2.508e-5
0.382, 2.460e-5
0.388, 2.416e-5
0.394, 2.375e-5
0.400, 2.337e-5
0.406, 2.300e-5
0.412, 2.265e-5
0.418, 2.233e-5
0.424, 2.201e-5
0.430, 2.170e-5
0.436, 2.142e-5
0.442, 2.116e-5
0.448, 2.089e-5
0.454, 2.066e-5
0.460, 2.044e-5
0.466, 2.022e-5
0.472, 2.001e-5
0.478, 1.980e-5
0.484, 1.961e-5
0.490, 1.945e-5
0.496, 1.929e-5
0.502, 1.914e-5
0.508, 1.901e-5
0.514, 1.888e-5
0.520, 1.875e-5
0.526, 1.864e-5
0.532, 1.854e-5
0.538, 1.846e-5
0.544, 1.837e-5
0.550, 1.830e-5
0.556, 1.824e-5
0.562, 1.818e-5
0.568, 1.812e-5
0.574, 1.807e-5
0.580, 1.802e-5
0.586, 1.798e-5
0.592, 1.795e-5
0.598, 1.792e-5
0.596, 1.577e-5
0.590, 1.537e-5
0.584, 1.507e-5
0.578, 1.483e-5
0.572, 1.461e-5
0.566, 1.441e-5
0.560, 1.422e-5
0.554, 1.404e-5
0.548, 1.387e-5
0.542, 1.370e-5
0.536, 1.356e-5
0.530, 1.343e-5
0.524, 1.330e-5
0.518, 1.317e-5
0.512, 1.302e-5
0.506, 1.292e-5
0.500, 1.281e-5
0.494, 1.270e-5
0.488, 1.260e-5
0.482, 1.252e-5
0.476, 1.243e-5
0.470, 1.234e-5
0.464, 1.224e-5
0.458, 1.215e-5
0.452, 1.206e-5
0.446, 1.198e-5
0.440, 1.191e-5
0.434, 1.183e-5
0.428, 1.175e-5
0.422, 1.168e-5
0.416, 1.160e-5
0.410, 1.151e-5
0.404, 1.143e-5
0.398, 1.135e-5
0.392, 1.127e-5
0.386, 1.119e-5
0.380, 1.111e-5
0.374, 1.102e-5
0.368, 1.093e-5
0.362, 1.083e-5
0.356, 1.071e-5
0.350, 1.059e-5
0.344, 1.047e-5
0.338, 1.034e-5
0.332, 1.017e-5
0.326, 9.988e-6
0.320, 9.773e-6
0.314, 9.513e-6
0.308, 9.208e-6
0.302, 8.852e-6
0.296, 8.424e-6
0.290, 7.930e-6
0.284, 7.312e-6
0.278, 6.579e-6
0.272, 5.679e-6
0.266, 4.623e-6
0.260, 3.349e-6
0.254, 1.835e-6
0.248, 1.219e-7
0.242, -1.869e-6
0.236, -4.181e-6
0.230, -6.766e-6
0.224, -9.620e-6
0.218, -1.269e-5
0.212, -1.599e-5
0.206, -1.941e-5
0.200, -2.284e-5
0.194, -2.626e-5
0.188, -2.951e-5
0.182, -3.256e-5
0.176, -3.525e-5
0.170, -3.747e-5
0.164, -3.920e-5
0.158, -4.033e-5
0.152, -4.093e-5
0.146, -4.092e-5
0.140, -4.048e-5
0.134, -3.968e-5
0.128, -3.857e-5
0.122, -3.728e-5
0.116, -3.586e-5
0.110, -3.439e-5
0.104, -3.292e-5
0.098, -3.150e-5
0.092, -3.016e-5
0.086, -2.888e-5
0.080, -2.770e-5
0.074, -2.661e-5
0.068, -2.560e-5
0.062, -2.467e-5
0.056, -2.379e-5
0.050, -2.299e-5
0.044, -2.226e-5
0.038, -2.157e-5
0.032, -2.096e-5
0.026, -2.037e-5
0.020, -1.985e-5
0.014, -1.935e-5
0.008, -1.887e-5
0.002, -1.842e-5
-0.004, -1.802e-5
-0.010, -1.763e-5
-0.016, -1.728e-5
-0.022, -1.694e-5
-0.028, -1.663e-5
-0.034, -1.634e-5
-0.040, -1.604e-5
-0.046, -1.575e-5
-0.052, -1.550e-5
-0.058, -1.524e-5
-0.064, -1.500e-5
-0.070, -1.479e-5
-0.076, -1.458e-5
-0.082, -1.438e-5
-0.088, -1.417e-5
-0.094, -1.397e-5
-0.100, -1.378e-5
-0.106, -1.361e-5
-0.112, -1.345e-5
-0.118, -1.330e-5
-0.124, -1.315e-5
-0.130, -1.302e-5
-0.136, -1.286e-5
-0.142, -1.272e-5
-0.148, -1.261e-5
-0.154, -1.252e-5
-0.160, -1.241e-5
-0.166, -1.233e-5
-0.172, -1.227e-5
-0.178, -1.222e-5
-0.184, -1.218e-5
-0.190, -1.214e-5
-0.196, -1.214e-5
-0.199, -1.216e-5